{
  "-Niv7oETN-n5Hwxb5eOh": [
    {
      "HitCorrect": "1",
      "botresponse": "Margaret",
      "category": "science_journals",
      "checkbox": true,
      "comments": "",
      "endTime": 1699651732020,
      "enjoyment": "2",
      "experiment_id": "description-editing-final.json",
      "final_description": "A colony of seals lounges on rocky terrain near the water's edge.\n",
      "glb_comments": "",
      "languages": "English",
      "picture": "images/science_journals/Arctocephalus_Pusillus_Pusillus.jpeg",
      "prolific_id": "5dcca657854936945d68eaa9",
      "reactionTime": 13647,
      "startDate": "Fri Nov 10 2023 16:26:04 GMT-0500 (Eastern Standard Time)",
      "startTime": 1699651564916,
      "start_description": "A colony of seals lounges on rocky terrain near the water's edge.",
      "timeSpent": 2.785066666666667,
      "trial_number": 1
    },
    {
      "HitCorrect": "1",
      "botresponse": "Margaret",
      "category": "health",
      "checkbox": true,
      "comments": "picture didn't load",
      "endTime": 1699651732020,
      "enjoyment": "2",
      "experiment_id": "description-editing-final.json",
      "final_description": "A blue, transparent electric kettle filled with water, showing bubbles as it boils, on a white base.\n",
      "glb_comments": "",
      "languages": "English",
      "picture": "images/shopping/Electric_kettle_-_Электрический_чайник.jpeg",
      "prolific_id": "5dcca657854936945d68eaa9",
      "reactionTime": 54907,
      "startDate": "Fri Nov 10 2023 16:26:04 GMT-0500 (Eastern Standard Time)",
      "startTime": 1699651564916,
      "start_description": "A blue, transparent electric kettle filled with water, showing bubbles as it boils, on a white base.",
      "timeSpent": 2.785066666666667,
      "trial_number": 2
    },
    {
      "HitCorrect": "1",
      "botresponse": "Margaret",
      "category": "travel",
      "checkbox": true,
      "comments": "",
      "deltas": [
        {
          "ops": [
            {
              "retain": 69
            },
            {
              "insert": " "
            }
          ]
        },
        {
          "ops": [
            {
              "retain": 70
            },
            {
              "insert": "e"
            }
          ]
        },
        {
          "ops": [
            {
              "retain": 70
            },
            {
              "delete": 1
            }
          ]
        }
      ],
      "endTime": 1699651732020,
      "enjoyment": "2",
      "experiment_id": "description-editing-final.json",
      "final_description": "A majestic waterfall cascades over rocks surrounded by lush greenery. \n",
      "glb_comments": "",
      "languages": "English",
      "picture": "images/science_journals/Shaki_Waterfall2.jpeg",
      "prolific_id": "5dcca657854936945d68eaa9",
      "reactionTime": 14243,
      "sequential_change": [
        "A majestic waterfall cascades over rocks surrounded by lush greenery. \n",
        "A majestic waterfall cascades over rocks surrounded by lush greenery. e\n",
        "A majestic waterfall cascades over rocks surrounded by lush greenery. \n"
      ],
      "startDate": "Fri Nov 10 2023 16:26:04 GMT-0500 (Eastern Standard Time)",
      "startTime": 1699651564916,
      "start_description": "A majestic waterfall cascades over rocks surrounded by lush greenery.",
      "timeSpent": 2.785066666666667,
      "trial_number": 3
    },
    {
      "HitCorrect": "1",
      "botresponse": "Margaret",
      "category": "news",
      "checkbox": false,
      "comments": "",
      "deltas": [
        {
          "ops": [
            {
              "retain": 75
            },
            {
              "insert": " "
            }
          ]
        },
        {
          "ops": [
            {
              "retain": 76
            },
            {
              "insert": "o"
            }
          ]
        },
        {
          "ops": [
            {
              "retain": 77
            },
            {
              "insert": "r"
            }
          ]
        },
        {
          "ops": [
            {
              "retain": 78
            },
            {
              "insert": " "
            }
          ]
        },
        {
          "ops": [
            {
              "retain": 79
            },
            {
              "insert": "u"
            }
          ]
        },
        {
          "ops": [
            {
              "retain": 80
            },
            {
              "insert": "m"
            }
          ]
        },
        {
          "ops": [
            {
              "retain": 81
            },
            {
              "insert": "b"
            }
          ]
        },
        {
          "ops": [
            {
              "retain": 82
            },
            {
              "insert": "r"
            }
          ]
        },
        {
          "ops": [
            {
              "retain": 83
            },
            {
              "insert": "e"
            }
          ]
        },
        {
          "ops": [
            {
              "retain": 84
            },
            {
              "insert": "l"
            }
          ]
        },
        {
          "ops": [
            {
              "retain": 85
            },
            {
              "insert": "l"
            }
          ]
        },
        {
          "ops": [
            {
              "retain": 86
            },
            {
              "insert": "a"
            }
          ]
        },
        {
          "ops": [
            {
              "retain": 87
            },
            {
              "insert": "s"
            }
          ]
        }
      ],
      "endTime": 1699651732020,
      "enjoyment": "2",
      "experiment_id": "description-editing-final.json",
      "final_description": "A group of people marching in a line along a park path, some carrying signs or umbrellas, on an overcast day.\n",
      "glb_comments": "",
      "languages": "English",
      "picture": "images/news/Rally_Against_Asset_Sales,_Palmerston_North,_14_July_2012_07.jpeg",
      "prolific_id": "5dcca657854936945d68eaa9",
      "reactionTime": 18850,
      "sequential_change": [
        "A group of people marching in a line along a park path, some carrying signs , on an overcast day.\n",
        "A group of people marching in a line along a park path, some carrying signs o, on an overcast day.\n",
        "A group of people marching in a line along a park path, some carrying signs or, on an overcast day.\n",
        "A group of people marching in a line along a park path, some carrying signs or , on an overcast day.\n",
        "A group of people marching in a line along a park path, some carrying signs or u, on an overcast day.\n",
        "A group of people marching in a line along a park path, some carrying signs or um, on an overcast day.\n",
        "A group of people marching in a line along a park path, some carrying signs or umb, on an overcast day.\n",
        "A group of people marching in a line along a park path, some carrying signs or umbr, on an overcast day.\n",
        "A group of people marching in a line along a park path, some carrying signs or umbre, on an overcast day.\n",
        "A group of people marching in a line along a park path, some carrying signs or umbrel, on an overcast day.\n",
        "A group of people marching in a line along a park path, some carrying signs or umbrell, on an overcast day.\n",
        "A group of people marching in a line along a park path, some carrying signs or umbrella, on an overcast day.\n",
        "A group of people marching in a line along a park path, some carrying signs or umbrellas, on an overcast day.\n"
      ],
      "startDate": "Fri Nov 10 2023 16:26:04 GMT-0500 (Eastern Standard Time)",
      "startTime": 1699651564916,
      "start_description": "A group of people marching in a line along a park path, some carrying signs, on an overcast day.",
      "timeSpent": 2.785066666666667,
      "trial_number": 4
    },
    {
      "HitCorrect": "1",
      "botresponse": "Margaret",
      "category": "social_media",
      "checkbox": true,
      "comments": "",
      "endTime": 1699651732020,
      "enjoyment": "2",
      "experiment_id": "description-editing-final.json",
      "final_description": "A massive eruption of lava is spewing from a volcano into the sky, with a fiery red and orange glow.\n",
      "glb_comments": "",
      "languages": "English",
      "picture": "images/science_journals/220px-Pahoeoe_fountain_original.jpeg",
      "prolific_id": "5dcca657854936945d68eaa9",
      "reactionTime": 6458,
      "startDate": "Fri Nov 10 2023 16:26:04 GMT-0500 (Eastern Standard Time)",
      "startTime": 1699651564916,
      "start_description": "A massive eruption of lava is spewing from a volcano into the sky, with a fiery red and orange glow.",
      "timeSpent": 2.785066666666667,
      "trial_number": 5
    },
    {
      "HitCorrect": "1",
      "botresponse": "Margaret",
      "category": "shopping",
      "checkbox": true,
      "comments": "",
      "endTime": 1699651732020,
      "enjoyment": "2",
      "experiment_id": "description-editing-final.json",
      "final_description": "A woman in a blue traditional outfit with jewelry, smiling in an ornate building.\n",
      "glb_comments": "",
      "languages": "English",
      "picture": "images/shopping/Virti_vaghani.jpeg",
      "prolific_id": "5dcca657854936945d68eaa9",
      "reactionTime": 17174,
      "startDate": "Fri Nov 10 2023 16:26:04 GMT-0500 (Eastern Standard Time)",
      "startTime": 1699651564916,
      "start_description": "A woman in a blue traditional outfit with jewelry, smiling in an ornate building.",
      "timeSpent": 2.785066666666667,
      "trial_number": 6
    }
  ],
  "-Niv98qGPa05xpg1V7Xs": [
    {
      "HitCorrect": "1",
      "botresponse": "Patricia",
      "category": "health",
      "checkbox": true,
      "comments": "No",
      "endTime": 1699652082265,
      "enjoyment": "1",
      "experiment_id": "description-editing-final.json",
      "final_description": "A majestic waterfall cascades over rocks surrounded by lush greenery.\n",
      "glb_comments": "nothing of note",
      "languages": "enflish",
      "picture": "images/science_journals/Shaki_Waterfall2.jpeg",
      "prolific_id": "63d04a5f7878a7b80ffc1a23",
      "reactionTime": 32036,
      "startDate": "Fri Nov 10 2023 15:30:27 GMT-0600 (Central Standard Time)",
      "startTime": 1699651827276,
      "start_description": "A majestic waterfall cascades over rocks surrounded by lush greenery.",
      "timeSpent": 4.249816666666667,
      "trial_number": 1
    },
    {
      "HitCorrect": "1",
      "botresponse": "Patricia",
      "category": "news",
      "checkbox": false,
      "comments": "",
      "deltas": [
        {
          "ops": [
            {
              "retain": 64
            },
            {
              "insert": "B"
            },
            {
              "delete": 7
            }
          ]
        },
        {
          "ops": [
            {
              "retain": 64
            },
            {
              "delete": 1
            }
          ]
        },
        {
          "ops": [
            {
              "retain": 64
            },
            {
              "insert": "P"
            }
          ]
        },
        {
          "ops": [
            {
              "retain": 65
            },
            {
              "insert": "r"
            }
          ]
        },
        {
          "ops": [
            {
              "retain": 66
            },
            {
              "insert": "e"
            }
          ]
        },
        {
          "ops": [
            {
              "retain": 66
            },
            {
              "delete": 1
            }
          ]
        },
        {
          "ops": [
            {
              "retain": 65
            },
            {
              "delete": 1
            }
          ]
        },
        {
          "ops": [
            {
              "retain": 64
            },
            {
              "delete": 1
            }
          ]
        },
        {
          "ops": [
            {
              "retain": 64
            },
            {
              "insert": "F"
            }
          ]
        },
        {
          "ops": [
            {
              "retain": 65
            },
            {
              "insert": "o"
            }
          ]
        },
        {
          "ops": [
            {
              "retain": 66
            },
            {
              "insert": "r"
            }
          ]
        },
        {
          "ops": [
            {
              "retain": 67
            },
            {
              "insert": "m"
            }
          ]
        },
        {
          "ops": [
            {
              "retain": 68
            },
            {
              "insert": "e"
            }
          ]
        },
        {
          "ops": [
            {
              "retain": 69
            },
            {
              "insert": "r"
            }
          ]
        },
        {
          "ops": [
            {
              "retain": 70
            },
            {
              "insert": " "
            }
          ]
        },
        {
          "ops": [
            {
              "retain": 71
            },
            {
              "delete": 1
            }
          ]
        },
        {
          "ops": [
            {
              "retain": 69
            },
            {
              "delete": 1
            }
          ]
        },
        {
          "ops": [
            {
              "retain": 68
            },
            {
              "delete": 1
            }
          ]
        },
        {
          "ops": [
            {
              "retain": 67
            },
            {
              "delete": 1
            }
          ]
        },
        {
          "ops": [
            {
              "retain": 66
            },
            {
              "delete": 1
            }
          ]
        },
        {
          "ops": [
            {
              "retain": 65
            },
            {
              "delete": 1
            }
          ]
        },
        {
          "ops": [
            {
              "retain": 64
            },
            {
              "delete": 1
            }
          ]
        },
        {
          "ops": [
            {
              "retain": 64
            },
            {
              "insert": "f"
            }
          ]
        },
        {
          "ops": [
            {
              "retain": 65
            },
            {
              "insert": "p"
            }
          ]
        },
        {
          "ops": [
            {
              "retain": 66
            },
            {
              "insert": "r"
            }
          ]
        },
        {
          "ops": [
            {
              "retain": 67
            },
            {
              "insert": "m"
            }
          ]
        },
        {
          "ops": [
            {
              "retain": 68
            },
            {
              "insert": ","
            }
          ]
        },
        {
          "ops": [
            {
              "retain": 68
            },
            {
              "delete": 1
            }
          ]
        },
        {
          "ops": [
            {
              "retain": 67
            },
            {
              "delete": 1
            }
          ]
        },
        {
          "ops": [
            {
              "retain": 66
            },
            {
              "delete": 1
            }
          ]
        },
        {
          "ops": [
            {
              "retain": 65
            },
            {
              "delete": 1
            }
          ]
        },
        {
          "ops": [
            {
              "retain": 65
            },
            {
              "insert": "o"
            }
          ]
        },
        {
          "ops": [
            {
              "retain": 66
            },
            {
              "insert": "r"
            }
          ]
        },
        {
          "ops": [
            {
              "retain": 67
            },
            {
              "insert": "m"
            }
          ]
        },
        {
          "ops": [
            {
              "retain": 68
            },
            {
              "insert": "e"
            }
          ]
        },
        {
          "ops": [
            {
              "retain": 69
            },
            {
              "insert": "r"
            }
          ]
        },
        {
          "ops": [
            {
              "retain": 70
            },
            {
              "insert": " "
            }
          ]
        },
        {
          "ops": [
            {
              "retain": 71
            },
            {
              "insert": "p"
            }
          ]
        },
        {
          "ops": [
            {
              "retain": 72
            },
            {
              "insert": "r"
            }
          ]
        },
        {
          "ops": [
            {
              "retain": 73
            },
            {
              "insert": "e"
            }
          ]
        },
        {
          "ops": [
            {
              "retain": 74
            },
            {
              "insert": "s"
            }
          ]
        },
        {
          "ops": [
            {
              "retain": 75
            },
            {
              "insert": "i"
            }
          ]
        },
        {
          "ops": [
            {
              "retain": 76
            },
            {
              "insert": "d"
            }
          ]
        },
        {
          "ops": [
            {
              "retain": 77
            },
            {
              "insert": "e"
            }
          ]
        },
        {
          "ops": [
            {
              "retain": 78
            },
            {
              "insert": "n"
            }
          ]
        },
        {
          "ops": [
            {
              "retain": 79
            },
            {
              "insert": "t"
            }
          ]
        },
        {
          "ops": [
            {
              "retain": 80
            },
            {
              "insert": " "
            }
          ]
        },
        {
          "ops": [
            {
              "retain": 81
            },
            {
              "insert": "B"
            }
          ]
        },
        {
          "ops": [
            {
              "retain": 82
            },
            {
              "insert": "a"
            }
          ]
        },
        {
          "ops": [
            {
              "retain": 83
            },
            {
              "insert": "r"
            }
          ]
        },
        {
          "ops": [
            {
              "retain": 84
            },
            {
              "insert": "a"
            }
          ]
        },
        {
          "ops": [
            {
              "retain": 85
            },
            {
              "insert": "k"
            }
          ]
        },
        {
          "ops": [
            {
              "retain": 86
            },
            {
              "insert": " "
            }
          ]
        },
        {
          "ops": [
            {
              "retain": 87
            },
            {
              "delete": 1
            }
          ]
        },
        {
          "ops": [
            {
              "retain": 85
            },
            {
              "delete": 1
            }
          ]
        },
        {
          "ops": [
            {
              "retain": 85
            },
            {
              "insert": "c"
            }
          ]
        },
        {
          "ops": [
            {
              "retain": 86
            },
            {
              "insert": "k"
            }
          ]
        },
        {
          "ops": [
            {
              "retain": 87
            },
            {
              "insert": " "
            }
          ]
        },
        {
          "ops": [
            {
              "retain": 88
            },
            {
              "insert": "O"
            }
          ]
        },
        {
          "ops": [
            {
              "retain": 89
            },
            {
              "insert": "b"
            }
          ]
        },
        {
          "ops": [
            {
              "retain": 90
            },
            {
              "insert": "a"
            }
          ]
        },
        {
          "ops": [
            {
              "retain": 91
            },
            {
              "insert": "m"
            }
          ]
        },
        {
          "ops": [
            {
              "retain": 92
            },
            {
              "insert": "a"
            }
          ]
        }
      ],
      "endTime": 1699652082265,
      "enjoyment": "1",
      "experiment_id": "description-editing-final.json",
      "final_description": "A group of men in suits stand in a dimly lit corridor, watching former president Barack Obama blurred in the foreground pass by.\n",
      "glb_comments": "nothing of note",
      "languages": "enflish",
      "picture": "images/news/Livingood_Obama_State_of_the_Union_2011.jpeg",
      "prolific_id": "63d04a5f7878a7b80ffc1a23",
      "reactionTime": 42918,
      "sequential_change": [
        "A group of men in suits stand in a dimly lit corridor, watching B blurred in the foreground pass by.\n",
        "A group of men in suits stand in a dimly lit corridor, watching  blurred in the foreground pass by.\n",
        "A group of men in suits stand in a dimly lit corridor, watching P blurred in the foreground pass by.\n",
        "A group of men in suits stand in a dimly lit corridor, watching Pr blurred in the foreground pass by.\n",
        "A group of men in suits stand in a dimly lit corridor, watching Pre blurred in the foreground pass by.\n",
        "A group of men in suits stand in a dimly lit corridor, watching Pr blurred in the foreground pass by.\n",
        "A group of men in suits stand in a dimly lit corridor, watching P blurred in the foreground pass by.\n",
        "A group of men in suits stand in a dimly lit corridor, watching  blurred in the foreground pass by.\n",
        "A group of men in suits stand in a dimly lit corridor, watching F blurred in the foreground pass by.\n",
        "A group of men in suits stand in a dimly lit corridor, watching Fo blurred in the foreground pass by.\n",
        "A group of men in suits stand in a dimly lit corridor, watching For blurred in the foreground pass by.\n",
        "A group of men in suits stand in a dimly lit corridor, watching Form blurred in the foreground pass by.\n",
        "A group of men in suits stand in a dimly lit corridor, watching Forme blurred in the foreground pass by.\n",
        "A group of men in suits stand in a dimly lit corridor, watching Former blurred in the foreground pass by.\n",
        "A group of men in suits stand in a dimly lit corridor, watching Former  blurred in the foreground pass by.\n",
        "A group of men in suits stand in a dimly lit corridor, watching Former blurred in the foreground pass by.\n",
        "A group of men in suits stand in a dimly lit corridor, watching Forme blurred in the foreground pass by.\n",
        "A group of men in suits stand in a dimly lit corridor, watching Form blurred in the foreground pass by.\n",
        "A group of men in suits stand in a dimly lit corridor, watching For blurred in the foreground pass by.\n",
        "A group of men in suits stand in a dimly lit corridor, watching Fo blurred in the foreground pass by.\n",
        "A group of men in suits stand in a dimly lit corridor, watching F blurred in the foreground pass by.\n",
        "A group of men in suits stand in a dimly lit corridor, watching  blurred in the foreground pass by.\n",
        "A group of men in suits stand in a dimly lit corridor, watching f blurred in the foreground pass by.\n",
        "A group of men in suits stand in a dimly lit corridor, watching fp blurred in the foreground pass by.\n",
        "A group of men in suits stand in a dimly lit corridor, watching fpr blurred in the foreground pass by.\n",
        "A group of men in suits stand in a dimly lit corridor, watching fprm blurred in the foreground pass by.\n",
        "A group of men in suits stand in a dimly lit corridor, watching fprm, blurred in the foreground pass by.\n",
        "A group of men in suits stand in a dimly lit corridor, watching fprm blurred in the foreground pass by.\n",
        "A group of men in suits stand in a dimly lit corridor, watching fpr blurred in the foreground pass by.\n",
        "A group of men in suits stand in a dimly lit corridor, watching fp blurred in the foreground pass by.\n",
        "A group of men in suits stand in a dimly lit corridor, watching f blurred in the foreground pass by.\n",
        "A group of men in suits stand in a dimly lit corridor, watching fo blurred in the foreground pass by.\n",
        "A group of men in suits stand in a dimly lit corridor, watching for blurred in the foreground pass by.\n",
        "A group of men in suits stand in a dimly lit corridor, watching form blurred in the foreground pass by.\n",
        "A group of men in suits stand in a dimly lit corridor, watching forme blurred in the foreground pass by.\n",
        "A group of men in suits stand in a dimly lit corridor, watching former blurred in the foreground pass by.\n",
        "A group of men in suits stand in a dimly lit corridor, watching former  blurred in the foreground pass by.\n",
        "A group of men in suits stand in a dimly lit corridor, watching former p blurred in the foreground pass by.\n",
        "A group of men in suits stand in a dimly lit corridor, watching former pr blurred in the foreground pass by.\n",
        "A group of men in suits stand in a dimly lit corridor, watching former pre blurred in the foreground pass by.\n",
        "A group of men in suits stand in a dimly lit corridor, watching former pres blurred in the foreground pass by.\n",
        "A group of men in suits stand in a dimly lit corridor, watching former presi blurred in the foreground pass by.\n",
        "A group of men in suits stand in a dimly lit corridor, watching former presid blurred in the foreground pass by.\n",
        "A group of men in suits stand in a dimly lit corridor, watching former preside blurred in the foreground pass by.\n",
        "A group of men in suits stand in a dimly lit corridor, watching former presiden blurred in the foreground pass by.\n",
        "A group of men in suits stand in a dimly lit corridor, watching former president blurred in the foreground pass by.\n",
        "A group of men in suits stand in a dimly lit corridor, watching former president  blurred in the foreground pass by.\n",
        "A group of men in suits stand in a dimly lit corridor, watching former president B blurred in the foreground pass by.\n",
        "A group of men in suits stand in a dimly lit corridor, watching former president Ba blurred in the foreground pass by.\n",
        "A group of men in suits stand in a dimly lit corridor, watching former president Bar blurred in the foreground pass by.\n",
        "A group of men in suits stand in a dimly lit corridor, watching former president Bara blurred in the foreground pass by.\n",
        "A group of men in suits stand in a dimly lit corridor, watching former president Barak blurred in the foreground pass by.\n",
        "A group of men in suits stand in a dimly lit corridor, watching former president Barak  blurred in the foreground pass by.\n",
        "A group of men in suits stand in a dimly lit corridor, watching former president Barak blurred in the foreground pass by.\n",
        "A group of men in suits stand in a dimly lit corridor, watching former president Bara blurred in the foreground pass by.\n",
        "A group of men in suits stand in a dimly lit corridor, watching former president Barac blurred in the foreground pass by.\n",
        "A group of men in suits stand in a dimly lit corridor, watching former president Barack blurred in the foreground pass by.\n",
        "A group of men in suits stand in a dimly lit corridor, watching former president Barack  blurred in the foreground pass by.\n",
        "A group of men in suits stand in a dimly lit corridor, watching former president Barack O blurred in the foreground pass by.\n",
        "A group of men in suits stand in a dimly lit corridor, watching former president Barack Ob blurred in the foreground pass by.\n",
        "A group of men in suits stand in a dimly lit corridor, watching former president Barack Oba blurred in the foreground pass by.\n",
        "A group of men in suits stand in a dimly lit corridor, watching former president Barack Obam blurred in the foreground pass by.\n",
        "A group of men in suits stand in a dimly lit corridor, watching former president Barack Obama blurred in the foreground pass by.\n"
      ],
      "startDate": "Fri Nov 10 2023 15:30:27 GMT-0600 (Central Standard Time)",
      "startTime": 1699651827276,
      "start_description": "A group of men in suits stand in a dimly lit corridor, watching someone blurred in the foreground pass by.",
      "timeSpent": 4.249816666666667,
      "trial_number": 2
    },
    {
      "HitCorrect": "1",
      "botresponse": "Patricia",
      "category": "travel",
      "checkbox": false,
      "comments": "",
      "deltas": [
        {
          "ops": [
            {
              "retain": 86
            },
            {
              "insert": " "
            }
          ]
        },
        {
          "ops": [
            {
              "retain": 87
            },
            {
              "insert": "T"
            }
          ]
        },
        {
          "ops": [
            {
              "retain": 88
            },
            {
              "insert": "h"
            }
          ]
        },
        {
          "ops": [
            {
              "retain": 89
            },
            {
              "insert": "e"
            }
          ]
        },
        {
          "ops": [
            {
              "retain": 90
            },
            {
              "insert": " "
            }
          ]
        },
        {
          "ops": [
            {
              "retain": 91
            },
            {
              "insert": "s"
            }
          ]
        },
        {
          "ops": [
            {
              "retain": 92
            },
            {
              "insert": "i"
            }
          ]
        },
        {
          "ops": [
            {
              "retain": 93
            },
            {
              "insert": "g"
            }
          ]
        },
        {
          "ops": [
            {
              "retain": 94
            },
            {
              "insert": "n"
            }
          ]
        },
        {
          "ops": [
            {
              "retain": 95
            },
            {
              "insert": " "
            }
          ]
        },
        {
          "ops": [
            {
              "retain": 96
            },
            {
              "insert": "i"
            }
          ]
        },
        {
          "ops": [
            {
              "retain": 97
            },
            {
              "insert": "s"
            }
          ]
        },
        {
          "ops": [
            {
              "retain": 98
            },
            {
              "insert": " "
            }
          ]
        },
        {
          "ops": [
            {
              "retain": 99
            },
            {
              "insert": "t"
            }
          ]
        },
        {
          "ops": [
            {
              "retain": 100
            },
            {
              "insert": "i"
            }
          ]
        },
        {
          "ops": [
            {
              "retain": 101
            },
            {
              "insert": "l"
            }
          ]
        },
        {
          "ops": [
            {
              "retain": 102
            },
            {
              "insert": "t"
            }
          ]
        },
        {
          "ops": [
            {
              "retain": 103
            },
            {
              "insert": "e"
            }
          ]
        },
        {
          "ops": [
            {
              "retain": 104
            },
            {
              "insert": "d"
            }
          ]
        },
        {
          "ops": [
            {
              "retain": 105
            },
            {
              "insert": " "
            }
          ]
        },
        {
          "ops": [
            {
              "retain": 106
            },
            {
              "insert": "t"
            }
          ]
        },
        {
          "ops": [
            {
              "retain": 107
            },
            {
              "insert": "o"
            }
          ]
        },
        {
          "ops": [
            {
              "retain": 108
            },
            {
              "insert": " "
            }
          ]
        },
        {
          "ops": [
            {
              "retain": 109
            },
            {
              "insert": "o"
            }
          ]
        },
        {
          "ops": [
            {
              "retain": 110
            },
            {
              "insert": "n"
            }
          ]
        },
        {
          "ops": [
            {
              "retain": 111
            },
            {
              "insert": "e"
            }
          ]
        },
        {
          "ops": [
            {
              "retain": 112
            },
            {
              "insert": " "
            }
          ]
        },
        {
          "ops": [
            {
              "retain": 113
            },
            {
              "insert": "s"
            }
          ]
        },
        {
          "ops": [
            {
              "retain": 114
            },
            {
              "insert": "i"
            }
          ]
        },
        {
          "ops": [
            {
              "retain": 115
            },
            {
              "insert": "d"
            }
          ]
        },
        {
          "ops": [
            {
              "retain": 116
            },
            {
              "insert": "e"
            }
          ]
        },
        {
          "ops": [
            {
              "retain": 117
            },
            {
              "insert": "."
            }
          ]
        }
      ],
      "endTime": 1699652082265,
      "enjoyment": "1",
      "experiment_id": "description-editing-final.json",
      "final_description": "A sign marks the South Pole with an American flag alongside, on a vast, snowy expanse. The sign is tilted to one side.\n",
      "glb_comments": "nothing of note",
      "languages": "enflish",
      "picture": "images/science_journals/Geographic_Southpole_crop.jpeg",
      "prolific_id": "63d04a5f7878a7b80ffc1a23",
      "reactionTime": 20597,
      "sequential_change": [
        "A sign marks the South Pole with an American flag alongside, on a vast, snowy expanse. \n",
        "A sign marks the South Pole with an American flag alongside, on a vast, snowy expanse. T\n",
        "A sign marks the South Pole with an American flag alongside, on a vast, snowy expanse. Th\n",
        "A sign marks the South Pole with an American flag alongside, on a vast, snowy expanse. The\n",
        "A sign marks the South Pole with an American flag alongside, on a vast, snowy expanse. The \n",
        "A sign marks the South Pole with an American flag alongside, on a vast, snowy expanse. The s\n",
        "A sign marks the South Pole with an American flag alongside, on a vast, snowy expanse. The si\n",
        "A sign marks the South Pole with an American flag alongside, on a vast, snowy expanse. The sig\n",
        "A sign marks the South Pole with an American flag alongside, on a vast, snowy expanse. The sign\n",
        "A sign marks the South Pole with an American flag alongside, on a vast, snowy expanse. The sign \n",
        "A sign marks the South Pole with an American flag alongside, on a vast, snowy expanse. The sign i\n",
        "A sign marks the South Pole with an American flag alongside, on a vast, snowy expanse. The sign is\n",
        "A sign marks the South Pole with an American flag alongside, on a vast, snowy expanse. The sign is \n",
        "A sign marks the South Pole with an American flag alongside, on a vast, snowy expanse. The sign is t\n",
        "A sign marks the South Pole with an American flag alongside, on a vast, snowy expanse. The sign is ti\n",
        "A sign marks the South Pole with an American flag alongside, on a vast, snowy expanse. The sign is til\n",
        "A sign marks the South Pole with an American flag alongside, on a vast, snowy expanse. The sign is tilt\n",
        "A sign marks the South Pole with an American flag alongside, on a vast, snowy expanse. The sign is tilte\n",
        "A sign marks the South Pole with an American flag alongside, on a vast, snowy expanse. The sign is tilted\n",
        "A sign marks the South Pole with an American flag alongside, on a vast, snowy expanse. The sign is tilted \n",
        "A sign marks the South Pole with an American flag alongside, on a vast, snowy expanse. The sign is tilted t\n",
        "A sign marks the South Pole with an American flag alongside, on a vast, snowy expanse. The sign is tilted to\n",
        "A sign marks the South Pole with an American flag alongside, on a vast, snowy expanse. The sign is tilted to \n",
        "A sign marks the South Pole with an American flag alongside, on a vast, snowy expanse. The sign is tilted to o\n",
        "A sign marks the South Pole with an American flag alongside, on a vast, snowy expanse. The sign is tilted to on\n",
        "A sign marks the South Pole with an American flag alongside, on a vast, snowy expanse. The sign is tilted to one\n",
        "A sign marks the South Pole with an American flag alongside, on a vast, snowy expanse. The sign is tilted to one \n",
        "A sign marks the South Pole with an American flag alongside, on a vast, snowy expanse. The sign is tilted to one s\n",
        "A sign marks the South Pole with an American flag alongside, on a vast, snowy expanse. The sign is tilted to one si\n",
        "A sign marks the South Pole with an American flag alongside, on a vast, snowy expanse. The sign is tilted to one sid\n",
        "A sign marks the South Pole with an American flag alongside, on a vast, snowy expanse. The sign is tilted to one side\n",
        "A sign marks the South Pole with an American flag alongside, on a vast, snowy expanse. The sign is tilted to one side.\n"
      ],
      "startDate": "Fri Nov 10 2023 15:30:27 GMT-0600 (Central Standard Time)",
      "startTime": 1699651827276,
      "start_description": "A sign marks the South Pole with an American flag alongside, on a vast, snowy expanse.",
      "timeSpent": 4.249816666666667,
      "trial_number": 3
    },
    {
      "HitCorrect": "1",
      "botresponse": "Patricia",
      "category": "shopping",
      "checkbox": true,
      "comments": "Picture did not load correctly.",
      "endTime": 1699652082265,
      "enjoyment": "1",
      "experiment_id": "description-editing-final.json",
      "final_description": "A blue, transparent electric kettle filled with water, showing bubbles as it boils, on a white base.\n",
      "glb_comments": "nothing of note",
      "languages": "enflish",
      "picture": "images/shopping/Electric_kettle_-_Электрический_чайник.jpeg",
      "prolific_id": "63d04a5f7878a7b80ffc1a23",
      "reactionTime": 27748,
      "startDate": "Fri Nov 10 2023 15:30:27 GMT-0600 (Central Standard Time)",
      "startTime": 1699651827276,
      "start_description": "A blue, transparent electric kettle filled with water, showing bubbles as it boils, on a white base.",
      "timeSpent": 4.249816666666667,
      "trial_number": 4
    },
    {
      "HitCorrect": "1",
      "botresponse": "Patricia",
      "category": "science_journals",
      "checkbox": false,
      "comments": "",
      "deltas": [
        {
          "ops": [
            {
              "retain": 34
            },
            {
              "insert": "m"
            }
          ]
        },
        {
          "ops": [
            {
              "retain": 35
            },
            {
              "insert": "a"
            }
          ]
        },
        {
          "ops": [
            {
              "retain": 36
            },
            {
              "insert": "k"
            }
          ]
        },
        {
          "ops": [
            {
              "retain": 37
            },
            {
              "insert": "i"
            }
          ]
        },
        {
          "ops": [
            {
              "retain": 38
            },
            {
              "insert": "n"
            }
          ]
        },
        {
          "ops": [
            {
              "retain": 39
            },
            {
              "insert": "g"
            }
          ]
        },
        {
          "ops": [
            {
              "retain": 40
            },
            {
              "insert": " "
            }
          ]
        },
        {
          "ops": [
            {
              "retain": 41
            },
            {
              "insert": "i"
            }
          ]
        },
        {
          "ops": [
            {
              "retain": 42
            },
            {
              "insert": "t"
            }
          ]
        },
        {
          "ops": [
            {
              "retain": 43
            },
            {
              "insert": " "
            }
          ]
        },
        {
          "ops": [
            {
              "retain": 44
            },
            {
              "insert": "l"
            }
          ]
        },
        {
          "ops": [
            {
              "retain": 45
            },
            {
              "insert": "o"
            }
          ]
        },
        {
          "ops": [
            {
              "retain": 46
            },
            {
              "insert": "o"
            }
          ]
        },
        {
          "ops": [
            {
              "retain": 47
            },
            {
              "insert": "k"
            }
          ]
        },
        {
          "ops": [
            {
              "retain": 48
            },
            {
              "insert": " "
            }
          ]
        },
        {
          "ops": [
            {
              "retain": 49
            },
            {
              "insert": "l"
            }
          ]
        },
        {
          "ops": [
            {
              "retain": 50
            },
            {
              "insert": "i"
            }
          ]
        },
        {
          "ops": [
            {
              "retain": 51
            },
            {
              "insert": "k"
            }
          ]
        },
        {
          "ops": [
            {
              "retain": 52
            },
            {
              "insert": "e"
            }
          ]
        },
        {
          "ops": [
            {
              "retain": 53
            },
            {
              "insert": " "
            }
          ]
        },
        {
          "ops": [
            {
              "retain": 54
            },
            {
              "insert": "a"
            }
          ]
        },
        {
          "ops": [
            {
              "retain": 55
            },
            {
              "insert": "n"
            }
          ]
        },
        {
          "ops": [
            {
              "retain": 56
            },
            {
              "insert": " "
            }
          ]
        },
        {
          "ops": [
            {
              "retain": 57
            },
            {
              "insert": "a"
            }
          ]
        },
        {
          "ops": [
            {
              "retain": 58
            },
            {
              "insert": "v"
            }
          ]
        },
        {
          "ops": [
            {
              "retain": 59
            },
            {
              "insert": "a"
            }
          ]
        },
        {
          "ops": [
            {
              "retain": 60
            },
            {
              "insert": "l"
            }
          ]
        },
        {
          "ops": [
            {
              "retain": 61
            },
            {
              "insert": "a"
            }
          ]
        },
        {
          "ops": [
            {
              "retain": 62
            },
            {
              "insert": "n"
            }
          ]
        },
        {
          "ops": [
            {
              "retain": 63
            },
            {
              "insert": "c"
            }
          ]
        },
        {
          "ops": [
            {
              "retain": 64
            },
            {
              "insert": "e"
            }
          ]
        },
        {
          "ops": [
            {
              "retain": 65
            },
            {
              "insert": " "
            }
          ]
        },
        {
          "ops": [
            {
              "retain": 66
            },
            {
              "insert": "i"
            }
          ]
        },
        {
          "ops": [
            {
              "retain": 67
            },
            {
              "insert": "n"
            }
          ]
        },
        {
          "ops": [
            {
              "retain": 68
            },
            {
              "insert": " "
            }
          ]
        },
        {
          "ops": [
            {
              "retain": 69
            },
            {
              "insert": "t"
            }
          ]
        },
        {
          "ops": [
            {
              "retain": 70
            },
            {
              "insert": "h"
            }
          ]
        },
        {
          "ops": [
            {
              "retain": 71
            },
            {
              "insert": "e"
            }
          ]
        },
        {
          "ops": [
            {
              "retain": 72
            },
            {
              "insert": " "
            }
          ]
        },
        {
          "ops": [
            {
              "retain": 73
            },
            {
              "insert": "b"
            }
          ]
        },
        {
          "ops": [
            {
              "retain": 74
            },
            {
              "insert": "a"
            }
          ]
        },
        {
          "ops": [
            {
              "retain": 75
            },
            {
              "insert": "c"
            }
          ]
        },
        {
          "ops": [
            {
              "retain": 76
            },
            {
              "insert": "k"
            }
          ]
        },
        {
          "ops": [
            {
              "retain": 77
            },
            {
              "insert": "g"
            }
          ]
        },
        {
          "ops": [
            {
              "retain": 78
            },
            {
              "insert": "r"
            }
          ]
        },
        {
          "ops": [
            {
              "retain": 79
            },
            {
              "insert": "o"
            }
          ]
        },
        {
          "ops": [
            {
              "retain": 80
            },
            {
              "insert": "u"
            }
          ]
        },
        {
          "ops": [
            {
              "retain": 81
            },
            {
              "insert": "n"
            }
          ]
        },
        {
          "ops": [
            {
              "retain": 82
            },
            {
              "insert": "d"
            }
          ]
        },
        {
          "ops": [
            {
              "retain": 83
            },
            {
              "insert": ","
            }
          ]
        },
        {
          "ops": [
            {
              "retain": 84
            },
            {
              "insert": " "
            }
          ]
        }
      ],
      "endTime": 1699652082265,
      "enjoyment": "1",
      "experiment_id": "description-editing-final.json",
      "final_description": "An active volcano emitting smoke, making it look like an avalance in the background, viewed from a high vantage point with snow-capped slopes nearby.\n",
      "glb_comments": "nothing of note",
      "languages": "enflish",
      "picture": "images/news/Avalanche_on_Everest.jpeg",
      "prolific_id": "63d04a5f7878a7b80ffc1a23",
      "reactionTime": 41052,
      "sequential_change": [
        "An active volcano emitting smoke, mviewed from a high vantage point with snow-capped slopes nearby.\n",
        "An active volcano emitting smoke, maviewed from a high vantage point with snow-capped slopes nearby.\n",
        "An active volcano emitting smoke, makviewed from a high vantage point with snow-capped slopes nearby.\n",
        "An active volcano emitting smoke, makiviewed from a high vantage point with snow-capped slopes nearby.\n",
        "An active volcano emitting smoke, makinviewed from a high vantage point with snow-capped slopes nearby.\n",
        "An active volcano emitting smoke, makingviewed from a high vantage point with snow-capped slopes nearby.\n",
        "An active volcano emitting smoke, making viewed from a high vantage point with snow-capped slopes nearby.\n",
        "An active volcano emitting smoke, making iviewed from a high vantage point with snow-capped slopes nearby.\n",
        "An active volcano emitting smoke, making itviewed from a high vantage point with snow-capped slopes nearby.\n",
        "An active volcano emitting smoke, making it viewed from a high vantage point with snow-capped slopes nearby.\n",
        "An active volcano emitting smoke, making it lviewed from a high vantage point with snow-capped slopes nearby.\n",
        "An active volcano emitting smoke, making it loviewed from a high vantage point with snow-capped slopes nearby.\n",
        "An active volcano emitting smoke, making it looviewed from a high vantage point with snow-capped slopes nearby.\n",
        "An active volcano emitting smoke, making it lookviewed from a high vantage point with snow-capped slopes nearby.\n",
        "An active volcano emitting smoke, making it look viewed from a high vantage point with snow-capped slopes nearby.\n",
        "An active volcano emitting smoke, making it look lviewed from a high vantage point with snow-capped slopes nearby.\n",
        "An active volcano emitting smoke, making it look liviewed from a high vantage point with snow-capped slopes nearby.\n",
        "An active volcano emitting smoke, making it look likviewed from a high vantage point with snow-capped slopes nearby.\n",
        "An active volcano emitting smoke, making it look likeviewed from a high vantage point with snow-capped slopes nearby.\n",
        "An active volcano emitting smoke, making it look like viewed from a high vantage point with snow-capped slopes nearby.\n",
        "An active volcano emitting smoke, making it look like aviewed from a high vantage point with snow-capped slopes nearby.\n",
        "An active volcano emitting smoke, making it look like anviewed from a high vantage point with snow-capped slopes nearby.\n",
        "An active volcano emitting smoke, making it look like an viewed from a high vantage point with snow-capped slopes nearby.\n",
        "An active volcano emitting smoke, making it look like an aviewed from a high vantage point with snow-capped slopes nearby.\n",
        "An active volcano emitting smoke, making it look like an avviewed from a high vantage point with snow-capped slopes nearby.\n",
        "An active volcano emitting smoke, making it look like an avaviewed from a high vantage point with snow-capped slopes nearby.\n",
        "An active volcano emitting smoke, making it look like an avalviewed from a high vantage point with snow-capped slopes nearby.\n",
        "An active volcano emitting smoke, making it look like an avalaviewed from a high vantage point with snow-capped slopes nearby.\n",
        "An active volcano emitting smoke, making it look like an avalanviewed from a high vantage point with snow-capped slopes nearby.\n",
        "An active volcano emitting smoke, making it look like an avalancviewed from a high vantage point with snow-capped slopes nearby.\n",
        "An active volcano emitting smoke, making it look like an avalanceviewed from a high vantage point with snow-capped slopes nearby.\n",
        "An active volcano emitting smoke, making it look like an avalance viewed from a high vantage point with snow-capped slopes nearby.\n",
        "An active volcano emitting smoke, making it look like an avalance iviewed from a high vantage point with snow-capped slopes nearby.\n",
        "An active volcano emitting smoke, making it look like an avalance inviewed from a high vantage point with snow-capped slopes nearby.\n",
        "An active volcano emitting smoke, making it look like an avalance in viewed from a high vantage point with snow-capped slopes nearby.\n",
        "An active volcano emitting smoke, making it look like an avalance in tviewed from a high vantage point with snow-capped slopes nearby.\n",
        "An active volcano emitting smoke, making it look like an avalance in thviewed from a high vantage point with snow-capped slopes nearby.\n",
        "An active volcano emitting smoke, making it look like an avalance in theviewed from a high vantage point with snow-capped slopes nearby.\n",
        "An active volcano emitting smoke, making it look like an avalance in the viewed from a high vantage point with snow-capped slopes nearby.\n",
        "An active volcano emitting smoke, making it look like an avalance in the bviewed from a high vantage point with snow-capped slopes nearby.\n",
        "An active volcano emitting smoke, making it look like an avalance in the baviewed from a high vantage point with snow-capped slopes nearby.\n",
        "An active volcano emitting smoke, making it look like an avalance in the bacviewed from a high vantage point with snow-capped slopes nearby.\n",
        "An active volcano emitting smoke, making it look like an avalance in the backviewed from a high vantage point with snow-capped slopes nearby.\n",
        "An active volcano emitting smoke, making it look like an avalance in the backgviewed from a high vantage point with snow-capped slopes nearby.\n",
        "An active volcano emitting smoke, making it look like an avalance in the backgrviewed from a high vantage point with snow-capped slopes nearby.\n",
        "An active volcano emitting smoke, making it look like an avalance in the backgroviewed from a high vantage point with snow-capped slopes nearby.\n",
        "An active volcano emitting smoke, making it look like an avalance in the backgrouviewed from a high vantage point with snow-capped slopes nearby.\n",
        "An active volcano emitting smoke, making it look like an avalance in the backgrounviewed from a high vantage point with snow-capped slopes nearby.\n",
        "An active volcano emitting smoke, making it look like an avalance in the backgroundviewed from a high vantage point with snow-capped slopes nearby.\n",
        "An active volcano emitting smoke, making it look like an avalance in the background,viewed from a high vantage point with snow-capped slopes nearby.\n",
        "An active volcano emitting smoke, making it look like an avalance in the background, viewed from a high vantage point with snow-capped slopes nearby.\n"
      ],
      "startDate": "Fri Nov 10 2023 15:30:27 GMT-0600 (Central Standard Time)",
      "startTime": 1699651827276,
      "start_description": "An active volcano emitting smoke, viewed from a high vantage point with snow-capped slopes nearby.",
      "timeSpent": 4.249816666666667,
      "trial_number": 5
    },
    {
      "HitCorrect": "1",
      "botresponse": "Patricia",
      "category": "social_media",
      "checkbox": false,
      "comments": "",
      "deltas": [
        {
          "ops": [
            {
              "insert": "S"
            },
            {
              "delete": 11
            }
          ]
        },
        {
          "ops": [
            {
              "retain": 1
            },
            {
              "insert": "i"
            }
          ]
        },
        {
          "ops": [
            {
              "retain": 2
            },
            {
              "insert": "n"
            }
          ]
        },
        {
          "ops": [
            {
              "retain": 3
            },
            {
              "insert": "g"
            }
          ]
        },
        {
          "ops": [
            {
              "retain": 4
            },
            {
              "insert": "e"
            }
          ]
        },
        {
          "ops": [
            {
              "retain": 5
            },
            {
              "insert": "r"
            }
          ]
        },
        {
          "ops": [
            {
              "retain": 6
            },
            {
              "insert": " "
            }
          ]
        },
        {
          "ops": [
            {
              "retain": 7
            },
            {
              "insert": "B"
            }
          ]
        },
        {
          "ops": [
            {
              "retain": 8
            },
            {
              "insert": "e"
            }
          ]
        },
        {
          "ops": [
            {
              "retain": 9
            },
            {
              "insert": "y"
            }
          ]
        },
        {
          "ops": [
            {
              "retain": 10
            },
            {
              "insert": "o"
            }
          ]
        },
        {
          "ops": [
            {
              "retain": 11
            },
            {
              "insert": "n"
            }
          ]
        },
        {
          "ops": [
            {
              "retain": 12
            },
            {
              "insert": "c"
            }
          ]
        },
        {
          "ops": [
            {
              "retain": 13
            },
            {
              "insert": "e"
            }
          ]
        },
        {
          "ops": [
            {
              "retain": 6
            },
            {
              "insert": ","
            }
          ]
        },
        {
          "ops": [
            {
              "retain": 15
            },
            {
              "insert": ","
            }
          ]
        }
      ],
      "endTime": 1699652082265,
      "enjoyment": "1",
      "experiment_id": "description-editing-final.json",
      "final_description": "Singer, Beyonce, sings into a microphone, wearing a yellow outfit with circular patterns, against a blurred background.\n",
      "glb_comments": "nothing of note",
      "languages": "enflish",
      "picture": "images/social_media/54183.jpg",
      "prolific_id": "63d04a5f7878a7b80ffc1a23",
      "reactionTime": 22086,
      "sequential_change": [
        "S sings into a microphone, wearing a yellow outfit with circular patterns, against a blurred background.\n",
        "Si sings into a microphone, wearing a yellow outfit with circular patterns, against a blurred background.\n",
        "Sin sings into a microphone, wearing a yellow outfit with circular patterns, against a blurred background.\n",
        "Sing sings into a microphone, wearing a yellow outfit with circular patterns, against a blurred background.\n",
        "Singe sings into a microphone, wearing a yellow outfit with circular patterns, against a blurred background.\n",
        "Singer sings into a microphone, wearing a yellow outfit with circular patterns, against a blurred background.\n",
        "Singer  sings into a microphone, wearing a yellow outfit with circular patterns, against a blurred background.\n",
        "Singer B sings into a microphone, wearing a yellow outfit with circular patterns, against a blurred background.\n",
        "Singer Be sings into a microphone, wearing a yellow outfit with circular patterns, against a blurred background.\n",
        "Singer Bey sings into a microphone, wearing a yellow outfit with circular patterns, against a blurred background.\n",
        "Singer Beyo sings into a microphone, wearing a yellow outfit with circular patterns, against a blurred background.\n",
        "Singer Beyon sings into a microphone, wearing a yellow outfit with circular patterns, against a blurred background.\n",
        "Singer Beyonc sings into a microphone, wearing a yellow outfit with circular patterns, against a blurred background.\n",
        "Singer Beyonce sings into a microphone, wearing a yellow outfit with circular patterns, against a blurred background.\n",
        "Singer, Beyonce sings into a microphone, wearing a yellow outfit with circular patterns, against a blurred background.\n",
        "Singer, Beyonce, sings into a microphone, wearing a yellow outfit with circular patterns, against a blurred background.\n"
      ],
      "startDate": "Fri Nov 10 2023 15:30:27 GMT-0600 (Central Standard Time)",
      "startTime": 1699651827276,
      "start_description": "A performer sings into a microphone, wearing a yellow outfit with circular patterns, against a blurred background.",
      "timeSpent": 4.249816666666667,
      "trial_number": 6
    }
  ],
  "-NivAKHnXb2hz-6neRb9": [
    {
      "HitCorrect": "1",
      "botresponse": "Barbara",
      "category": "social_media",
      "checkbox": false,
      "comments": "",
      "deltas": [
        {
          "ops": [
            {
              "retain": 7
            },
            {
              "insert": "b"
            }
          ]
        },
        {
          "ops": [
            {
              "retain": 8
            },
            {
              "insert": "u"
            }
          ]
        },
        {
          "ops": [
            {
              "retain": 9
            },
            {
              "insert": "s"
            }
          ]
        },
        {
          "ops": [
            {
              "retain": 10
            },
            {
              "insert": "y"
            }
          ]
        },
        {
          "ops": [
            {
              "retain": 11
            },
            {
              "insert": " "
            }
          ]
        },
        {
          "ops": [
            {
              "retain": 6
            },
            {
              "insert": ","
            }
          ]
        },
        {
          "ops": [
            {
              "retain": 36
            },
            {
              "insert": " "
            }
          ]
        },
        {
          "ops": [
            {
              "retain": 37
            },
            {
              "insert": "m"
            }
          ]
        },
        {
          "ops": [
            {
              "retain": 38
            },
            {
              "insert": "a"
            }
          ]
        },
        {
          "ops": [
            {
              "retain": 39
            },
            {
              "insert": "n"
            }
          ]
        },
        {
          "ops": [
            {
              "retain": 40
            },
            {
              "insert": "y"
            }
          ]
        },
        {
          "ops": [
            {
              "retain": 68
            },
            {
              "insert": " "
            }
          ]
        },
        {
          "ops": [
            {
              "retain": 69
            },
            {
              "insert": "b"
            }
          ]
        },
        {
          "ops": [
            {
              "retain": 70
            },
            {
              "insert": "e"
            }
          ]
        },
        {
          "ops": [
            {
              "retain": 71
            },
            {
              "insert": "a"
            }
          ]
        },
        {
          "ops": [
            {
              "retain": 72
            },
            {
              "insert": "u"
            }
          ]
        },
        {
          "ops": [
            {
              "retain": 73
            },
            {
              "insert": "t"
            }
          ]
        },
        {
          "ops": [
            {
              "retain": 74
            },
            {
              "insert": "i"
            }
          ]
        },
        {
          "ops": [
            {
              "retain": 75
            },
            {
              "insert": "f"
            }
          ]
        },
        {
          "ops": [
            {
              "retain": 76
            },
            {
              "insert": "u"
            }
          ]
        },
        {
          "ops": [
            {
              "retain": 77
            },
            {
              "insert": "l"
            }
          ]
        },
        {
          "ops": [
            {
              "retain": 78
            },
            {
              "insert": " "
            }
          ]
        }
      ],
      "endTime": 1699652393839,
      "enjoyment": "1",
      "experiment_id": "description-editing-final.json",
      "final_description": "Aerial, busy city view at dusk, with many historic buildings under a beautiful  pastel-hued sky.\n",
      "glb_comments": "",
      "languages": "english",
      "picture": "images/travel/30208.jpg",
      "prolific_id": "654bfdda2980d12f25f97576",
      "reactionTime": 69435,
      "sequential_change": [
        "Aerial bcity view at dusk, with historic buildings under a pastel-hued sky.\n",
        "Aerial bucity view at dusk, with historic buildings under a pastel-hued sky.\n",
        "Aerial buscity view at dusk, with historic buildings under a pastel-hued sky.\n",
        "Aerial busycity view at dusk, with historic buildings under a pastel-hued sky.\n",
        "Aerial busy city view at dusk, with historic buildings under a pastel-hued sky.\n",
        "Aerial, busy city view at dusk, with historic buildings under a pastel-hued sky.\n",
        "Aerial, busy city view at dusk, with  historic buildings under a pastel-hued sky.\n",
        "Aerial, busy city view at dusk, with m historic buildings under a pastel-hued sky.\n",
        "Aerial, busy city view at dusk, with ma historic buildings under a pastel-hued sky.\n",
        "Aerial, busy city view at dusk, with man historic buildings under a pastel-hued sky.\n",
        "Aerial, busy city view at dusk, with many historic buildings under a pastel-hued sky.\n",
        "Aerial, busy city view at dusk, with many historic buildings under a  pastel-hued sky.\n",
        "Aerial, busy city view at dusk, with many historic buildings under a b pastel-hued sky.\n",
        "Aerial, busy city view at dusk, with many historic buildings under a be pastel-hued sky.\n",
        "Aerial, busy city view at dusk, with many historic buildings under a bea pastel-hued sky.\n",
        "Aerial, busy city view at dusk, with many historic buildings under a beau pastel-hued sky.\n",
        "Aerial, busy city view at dusk, with many historic buildings under a beaut pastel-hued sky.\n",
        "Aerial, busy city view at dusk, with many historic buildings under a beauti pastel-hued sky.\n",
        "Aerial, busy city view at dusk, with many historic buildings under a beautif pastel-hued sky.\n",
        "Aerial, busy city view at dusk, with many historic buildings under a beautifu pastel-hued sky.\n",
        "Aerial, busy city view at dusk, with many historic buildings under a beautiful pastel-hued sky.\n",
        "Aerial, busy city view at dusk, with many historic buildings under a beautiful  pastel-hued sky.\n"
      ],
      "startDate": "Fri Nov 10 2023 16:35:02 GMT-0500 (Eastern Standard Time)",
      "startTime": 1699652102565,
      "start_description": "Aerial city view at dusk, with historic buildings under a pastel-hued sky.",
      "timeSpent": 4.854566666666667,
      "trial_number": 1
    },
    {
      "HitCorrect": "1",
      "botresponse": "Barbara",
      "category": "travel",
      "checkbox": false,
      "comments": "",
      "deltas": [
        {
          "ops": [
            {
              "retain": 2
            },
            {
              "insert": "w"
            }
          ]
        },
        {
          "ops": [
            {
              "retain": 3
            },
            {
              "insert": "h"
            }
          ]
        },
        {
          "ops": [
            {
              "retain": 4
            },
            {
              "insert": "i"
            }
          ]
        },
        {
          "ops": [
            {
              "retain": 5
            },
            {
              "insert": "t"
            }
          ]
        },
        {
          "ops": [
            {
              "retain": 6
            },
            {
              "insert": "e"
            }
          ]
        },
        {
          "ops": [
            {
              "retain": 7
            },
            {
              "insert": " "
            }
          ]
        }
      ],
      "endTime": 1699652393839,
      "enjoyment": "1",
      "experiment_id": "description-editing-final.json",
      "final_description": "A white sign marks the South Pole with an American flag alongside, on a vast, snowy expanse.\n",
      "glb_comments": "",
      "languages": "english",
      "picture": "images/science_journals/Geographic_Southpole_crop.jpeg",
      "prolific_id": "654bfdda2980d12f25f97576",
      "reactionTime": 31710,
      "sequential_change": [
        "A wsign marks the South Pole with an American flag alongside, on a vast, snowy expanse.\n",
        "A whsign marks the South Pole with an American flag alongside, on a vast, snowy expanse.\n",
        "A whisign marks the South Pole with an American flag alongside, on a vast, snowy expanse.\n",
        "A whitsign marks the South Pole with an American flag alongside, on a vast, snowy expanse.\n",
        "A whitesign marks the South Pole with an American flag alongside, on a vast, snowy expanse.\n",
        "A white sign marks the South Pole with an American flag alongside, on a vast, snowy expanse.\n"
      ],
      "startDate": "Fri Nov 10 2023 16:35:02 GMT-0500 (Eastern Standard Time)",
      "startTime": 1699652102565,
      "start_description": "A sign marks the South Pole with an American flag alongside, on a vast, snowy expanse.",
      "timeSpent": 4.854566666666667,
      "trial_number": 2
    },
    {
      "HitCorrect": "1",
      "botresponse": "Barbara",
      "category": "science_journals",
      "checkbox": true,
      "comments": "",
      "endTime": 1699652393839,
      "enjoyment": "1",
      "experiment_id": "description-editing-final.json",
      "final_description": "The International Space Station orbits Earth, with solar panels extended, against the backdrop of our planet’s curve.\n",
      "glb_comments": "",
      "languages": "english",
      "picture": "images/science_journals/STS-130_Endeavour_flyaround_5.jpeg",
      "prolific_id": "654bfdda2980d12f25f97576",
      "reactionTime": 14131,
      "startDate": "Fri Nov 10 2023 16:35:02 GMT-0500 (Eastern Standard Time)",
      "startTime": 1699652102565,
      "start_description": "The International Space Station orbits Earth, with solar panels extended, against the backdrop of our planet’s curve.",
      "timeSpent": 4.854566666666667,
      "trial_number": 3
    },
    {
      "HitCorrect": "1",
      "botresponse": "Barbara",
      "category": "shopping",
      "checkbox": false,
      "comments": "",
      "deltas": [
        {
          "ops": [
            {
              "retain": 1
            },
            {
              "insert": " "
            }
          ]
        },
        {
          "ops": [
            {
              "retain": 2
            },
            {
              "insert": "y"
            }
          ]
        },
        {
          "ops": [
            {
              "retain": 3
            },
            {
              "insert": "o"
            }
          ]
        },
        {
          "ops": [
            {
              "retain": 4
            },
            {
              "insert": "u"
            }
          ]
        },
        {
          "ops": [
            {
              "retain": 5
            },
            {
              "insert": "n"
            }
          ]
        },
        {
          "ops": [
            {
              "retain": 6
            },
            {
              "insert": "g"
            }
          ]
        },
        {
          "ops": [
            {
              "retain": 55
            },
            {
              "delete": 1
            }
          ]
        },
        {
          "ops": [
            {
              "retain": 55
            },
            {
              "insert": " "
            }
          ]
        },
        {
          "ops": [
            {
              "retain": 56
            },
            {
              "insert": "a"
            }
          ]
        },
        {
          "ops": [
            {
              "retain": 57
            },
            {
              "insert": "n"
            }
          ]
        },
        {
          "ops": [
            {
              "retain": 58
            },
            {
              "insert": "d"
            }
          ]
        },
        {
          "ops": [
            {
              "retain": 59
            },
            {
              "insert": " "
            }
          ]
        },
        {
          "ops": [
            {
              "retain": 60
            },
            {
              "insert": "a"
            }
          ]
        },
        {
          "ops": [
            {
              "retain": 61
            },
            {
              "insert": " "
            }
          ]
        },
        {
          "ops": [
            {
              "retain": 62
            },
            {
              "insert": "f"
            }
          ]
        },
        {
          "ops": [
            {
              "retain": 63
            },
            {
              "insert": "o"
            }
          ]
        },
        {
          "ops": [
            {
              "retain": 64
            },
            {
              "insert": "r"
            }
          ]
        },
        {
          "ops": [
            {
              "retain": 65
            },
            {
              "insert": "e"
            }
          ]
        },
        {
          "ops": [
            {
              "retain": 66
            },
            {
              "insert": "a"
            }
          ]
        },
        {
          "ops": [
            {
              "retain": 67
            },
            {
              "insert": "r"
            }
          ]
        },
        {
          "ops": [
            {
              "retain": 68
            },
            {
              "insert": "m"
            }
          ]
        },
        {
          "ops": [
            {
              "retain": 69
            },
            {
              "insert": " "
            }
          ]
        },
        {
          "ops": [
            {
              "retain": 70
            },
            {
              "insert": "m"
            }
          ]
        },
        {
          "ops": [
            {
              "retain": 71
            },
            {
              "insert": "a"
            }
          ]
        },
        {
          "ops": [
            {
              "retain": 72
            },
            {
              "insert": "r"
            }
          ]
        },
        {
          "ops": [
            {
              "retain": 73
            },
            {
              "insert": "k"
            }
          ]
        },
        {
          "ops": [
            {
              "retain": 74
            },
            {
              "insert": "i"
            }
          ]
        },
        {
          "ops": [
            {
              "retain": 75
            },
            {
              "insert": "n"
            }
          ]
        },
        {
          "ops": [
            {
              "retain": 76
            },
            {
              "insert": "g"
            }
          ]
        },
        {
          "ops": [
            {
              "retain": 77
            },
            {
              "insert": "s"
            }
          ]
        },
        {
          "ops": [
            {
              "retain": 78
            },
            {
              "insert": " "
            }
          ]
        },
        {
          "ops": [
            {
              "retain": 79
            },
            {
              "delete": 1
            }
          ]
        },
        {
          "ops": [
            {
              "retain": 78
            },
            {
              "insert": ","
            }
          ]
        },
        {
          "ops": [
            {
              "retain": 60
            },
            {
              "delete": 1
            }
          ]
        },
        {
          "ops": [
            {
              "retain": 60
            },
            {
              "delete": 1
            }
          ]
        }
      ],
      "endTime": 1699652393839,
      "enjoyment": "1",
      "experiment_id": "description-editing-final.json",
      "final_description": "A young woman in a blue traditional outfit with jewelry and forearm markings, smiling in an ornate building.\n",
      "glb_comments": "",
      "languages": "english",
      "picture": "images/shopping/Virti_vaghani.jpeg",
      "prolific_id": "654bfdda2980d12f25f97576",
      "reactionTime": 63594,
      "sequential_change": [
        "A  woman in a blue traditional outfit with jewelry, smiling in an ornate building.\n",
        "A y woman in a blue traditional outfit with jewelry, smiling in an ornate building.\n",
        "A yo woman in a blue traditional outfit with jewelry, smiling in an ornate building.\n",
        "A you woman in a blue traditional outfit with jewelry, smiling in an ornate building.\n",
        "A youn woman in a blue traditional outfit with jewelry, smiling in an ornate building.\n",
        "A young woman in a blue traditional outfit with jewelry, smiling in an ornate building.\n",
        "A young woman in a blue traditional outfit with jewelry smiling in an ornate building.\n",
        "A young woman in a blue traditional outfit with jewelry  smiling in an ornate building.\n",
        "A young woman in a blue traditional outfit with jewelry a smiling in an ornate building.\n",
        "A young woman in a blue traditional outfit with jewelry an smiling in an ornate building.\n",
        "A young woman in a blue traditional outfit with jewelry and smiling in an ornate building.\n",
        "A young woman in a blue traditional outfit with jewelry and  smiling in an ornate building.\n",
        "A young woman in a blue traditional outfit with jewelry and a smiling in an ornate building.\n",
        "A young woman in a blue traditional outfit with jewelry and a  smiling in an ornate building.\n",
        "A young woman in a blue traditional outfit with jewelry and a f smiling in an ornate building.\n",
        "A young woman in a blue traditional outfit with jewelry and a fo smiling in an ornate building.\n",
        "A young woman in a blue traditional outfit with jewelry and a for smiling in an ornate building.\n",
        "A young woman in a blue traditional outfit with jewelry and a fore smiling in an ornate building.\n",
        "A young woman in a blue traditional outfit with jewelry and a forea smiling in an ornate building.\n",
        "A young woman in a blue traditional outfit with jewelry and a forear smiling in an ornate building.\n",
        "A young woman in a blue traditional outfit with jewelry and a forearm smiling in an ornate building.\n",
        "A young woman in a blue traditional outfit with jewelry and a forearm  smiling in an ornate building.\n",
        "A young woman in a blue traditional outfit with jewelry and a forearm m smiling in an ornate building.\n",
        "A young woman in a blue traditional outfit with jewelry and a forearm ma smiling in an ornate building.\n",
        "A young woman in a blue traditional outfit with jewelry and a forearm mar smiling in an ornate building.\n",
        "A young woman in a blue traditional outfit with jewelry and a forearm mark smiling in an ornate building.\n",
        "A young woman in a blue traditional outfit with jewelry and a forearm marki smiling in an ornate building.\n",
        "A young woman in a blue traditional outfit with jewelry and a forearm markin smiling in an ornate building.\n",
        "A young woman in a blue traditional outfit with jewelry and a forearm marking smiling in an ornate building.\n",
        "A young woman in a blue traditional outfit with jewelry and a forearm markings smiling in an ornate building.\n",
        "A young woman in a blue traditional outfit with jewelry and a forearm markings  smiling in an ornate building.\n",
        "A young woman in a blue traditional outfit with jewelry and a forearm markings smiling in an ornate building.\n",
        "A young woman in a blue traditional outfit with jewelry and a forearm markings, smiling in an ornate building.\n",
        "A young woman in a blue traditional outfit with jewelry and  forearm markings, smiling in an ornate building.\n",
        "A young woman in a blue traditional outfit with jewelry and forearm markings, smiling in an ornate building.\n"
      ],
      "startDate": "Fri Nov 10 2023 16:35:02 GMT-0500 (Eastern Standard Time)",
      "startTime": 1699652102565,
      "start_description": "A woman in a blue traditional outfit with jewelry, smiling in an ornate building.",
      "timeSpent": 4.854566666666667,
      "trial_number": 4
    },
    {
      "HitCorrect": "1",
      "botresponse": "Barbara",
      "category": "health",
      "checkbox": false,
      "comments": "",
      "deltas": [
        {
          "ops": [
            {
              "retain": 12
            },
            {
              "insert": "p"
            }
          ]
        },
        {
          "ops": [
            {
              "retain": 13
            },
            {
              "insert": "a"
            }
          ]
        },
        {
          "ops": [
            {
              "retain": 14
            },
            {
              "insert": "l"
            }
          ]
        },
        {
          "ops": [
            {
              "retain": 15
            },
            {
              "insert": "e"
            }
          ]
        },
        {
          "ops": [
            {
              "retain": 16
            },
            {
              "insert": " "
            }
          ]
        }
      ],
      "endTime": 1699652393839,
      "enjoyment": "1",
      "experiment_id": "description-editing-final.json",
      "final_description": "Close-up of pale hands strumming a resonator guitar, showcasing fingers on strings and the guitar's body.\n",
      "glb_comments": "",
      "languages": "english",
      "picture": "images/shopping/4068.jpg",
      "prolific_id": "654bfdda2980d12f25f97576",
      "reactionTime": 22539,
      "sequential_change": [
        "Close-up of phands strumming a resonator guitar, showcasing fingers on strings and the guitar's body.\n",
        "Close-up of pahands strumming a resonator guitar, showcasing fingers on strings and the guitar's body.\n",
        "Close-up of palhands strumming a resonator guitar, showcasing fingers on strings and the guitar's body.\n",
        "Close-up of palehands strumming a resonator guitar, showcasing fingers on strings and the guitar's body.\n",
        "Close-up of pale hands strumming a resonator guitar, showcasing fingers on strings and the guitar's body.\n"
      ],
      "startDate": "Fri Nov 10 2023 16:35:02 GMT-0500 (Eastern Standard Time)",
      "startTime": 1699652102565,
      "start_description": "Close-up of hands strumming a resonator guitar, showcasing fingers on strings and the guitar's body.",
      "timeSpent": 4.854566666666667,
      "trial_number": 5
    },
    {
      "HitCorrect": "1",
      "botresponse": "Barbara",
      "category": "news",
      "checkbox": false,
      "comments": "",
      "deltas": [
        {
          "ops": [
            {
              "retain": 10
            },
            {
              "insert": "y"
            }
          ]
        },
        {
          "ops": [
            {
              "retain": 10
            },
            {
              "delete": 1
            }
          ]
        },
        {
          "ops": [
            {
              "retain": 10
            },
            {
              "insert": "t"
            }
          ]
        },
        {
          "ops": [
            {
              "retain": 11
            },
            {
              "insert": "w"
            }
          ]
        },
        {
          "ops": [
            {
              "retain": 12
            },
            {
              "insert": "o"
            }
          ]
        },
        {
          "ops": [
            {
              "retain": 13
            },
            {
              "insert": "-"
            }
          ]
        },
        {
          "ops": [
            {
              "retain": 14
            },
            {
              "insert": "s"
            }
          ]
        },
        {
          "ops": [
            {
              "retain": 15
            },
            {
              "insert": "r"
            }
          ]
        },
        {
          "ops": [
            {
              "retain": 16
            },
            {
              "insert": "t"
            }
          ]
        },
        {
          "ops": [
            {
              "retain": 16
            },
            {
              "delete": 1
            }
          ]
        },
        {
          "ops": [
            {
              "retain": 15
            },
            {
              "delete": 1
            }
          ]
        },
        {
          "ops": [
            {
              "retain": 15
            },
            {
              "insert": "t"
            }
          ]
        },
        {
          "ops": [
            {
              "retain": 16
            },
            {
              "insert": "o"
            }
          ]
        },
        {
          "ops": [
            {
              "retain": 17
            },
            {
              "insert": "r"
            }
          ]
        },
        {
          "ops": [
            {
              "retain": 18
            },
            {
              "insert": "y"
            }
          ]
        },
        {
          "ops": [
            {
              "retain": 19
            },
            {
              "insert": " "
            }
          ]
        }
      ],
      "endTime": 1699652393839,
      "enjoyment": "1",
      "experiment_id": "description-editing-final.json",
      "final_description": "A crowded two-story indoor rally, with people holding signs, likely a protest or civic event in a grand building.\n",
      "glb_comments": "",
      "languages": "english",
      "picture": "images/news/Gov_Walker_Protests1_JR.jpeg",
      "prolific_id": "654bfdda2980d12f25f97576",
      "reactionTime": 29627,
      "sequential_change": [
        "A crowded yindoor rally, with people holding signs, likely a protest or civic event in a grand building.\n",
        "A crowded indoor rally, with people holding signs, likely a protest or civic event in a grand building.\n",
        "A crowded tindoor rally, with people holding signs, likely a protest or civic event in a grand building.\n",
        "A crowded twindoor rally, with people holding signs, likely a protest or civic event in a grand building.\n",
        "A crowded twoindoor rally, with people holding signs, likely a protest or civic event in a grand building.\n",
        "A crowded two-indoor rally, with people holding signs, likely a protest or civic event in a grand building.\n",
        "A crowded two-sindoor rally, with people holding signs, likely a protest or civic event in a grand building.\n",
        "A crowded two-srindoor rally, with people holding signs, likely a protest or civic event in a grand building.\n",
        "A crowded two-srtindoor rally, with people holding signs, likely a protest or civic event in a grand building.\n",
        "A crowded two-srindoor rally, with people holding signs, likely a protest or civic event in a grand building.\n",
        "A crowded two-sindoor rally, with people holding signs, likely a protest or civic event in a grand building.\n",
        "A crowded two-stindoor rally, with people holding signs, likely a protest or civic event in a grand building.\n",
        "A crowded two-stoindoor rally, with people holding signs, likely a protest or civic event in a grand building.\n",
        "A crowded two-storindoor rally, with people holding signs, likely a protest or civic event in a grand building.\n",
        "A crowded two-storyindoor rally, with people holding signs, likely a protest or civic event in a grand building.\n",
        "A crowded two-story indoor rally, with people holding signs, likely a protest or civic event in a grand building.\n"
      ],
      "startDate": "Fri Nov 10 2023 16:35:02 GMT-0500 (Eastern Standard Time)",
      "startTime": 1699652102565,
      "start_description": "A crowded indoor rally, with people holding signs, likely a protest or civic event in a grand building.",
      "timeSpent": 4.854566666666667,
      "trial_number": 6
    }
  ],
  "-NivAR-iIXJaG7TXtIKN": [
    {
      "HitCorrect": "1",
      "botresponse": "Elizabeth",
      "category": "social_media",
      "checkbox": true,
      "comments": "",
      "endTime": 1699652419678,
      "enjoyment": "1",
      "experiment_id": "description-editing-final.json",
      "final_description": "A variety of fresh fruits, vegetables, and nuts are arranged on a wooden surface. There's a basket of apples, a watermelon slice, and grains.\n",
      "glb_comments": "",
      "languages": "English",
      "picture": "images/health/Foods_(cropped).jpeg",
      "prolific_id": "654d68745761097ee651b003",
      "reactionTime": 42044,
      "startDate": "Fri Nov 10 2023 13:36:27 GMT-0800 (Pacific Standard Time)",
      "startTime": 1699652187454,
      "start_description": "A variety of fresh fruits, vegetables, and nuts are arranged on a wooden surface. There's a basket of apples, a watermelon slice, and grains.",
      "timeSpent": 3.8704,
      "trial_number": 1
    },
    {
      "HitCorrect": "1",
      "botresponse": "Elizabeth",
      "category": "shopping",
      "checkbox": true,
      "comments": "",
      "endTime": 1699652419678,
      "enjoyment": "1",
      "experiment_id": "description-editing-final.json",
      "final_description": "A beige sofa with four decorative pillows: two green with distinct patterns, one with a blend of muted colors, and a floral print cushion.\n",
      "glb_comments": "",
      "languages": "English",
      "picture": "images/shopping/685px-Sofa3800ppx.jpeg",
      "prolific_id": "654d68745761097ee651b003",
      "reactionTime": 15486,
      "startDate": "Fri Nov 10 2023 13:36:27 GMT-0800 (Pacific Standard Time)",
      "startTime": 1699652187454,
      "start_description": "A beige sofa with four decorative pillows: two green with distinct patterns, one with a blend of muted colors, and a floral print cushion.",
      "timeSpent": 3.8704,
      "trial_number": 2
    },
    {
      "HitCorrect": "1",
      "botresponse": "Elizabeth",
      "category": "travel",
      "checkbox": true,
      "comments": "",
      "endTime": 1699652419678,
      "enjoyment": "1",
      "experiment_id": "description-editing-final.json",
      "final_description": "Aerial city view at dusk, with historic buildings under a pastel-hued sky.\n",
      "glb_comments": "",
      "languages": "English",
      "picture": "images/travel/30208.jpg",
      "prolific_id": "654d68745761097ee651b003",
      "reactionTime": 19263,
      "startDate": "Fri Nov 10 2023 13:36:27 GMT-0800 (Pacific Standard Time)",
      "startTime": 1699652187454,
      "start_description": "Aerial city view at dusk, with historic buildings under a pastel-hued sky.",
      "timeSpent": 3.8704,
      "trial_number": 3
    },
    {
      "HitCorrect": "1",
      "botresponse": "Elizabeth",
      "category": "news",
      "checkbox": false,
      "comments": "",
      "deltas": [
        {
          "ops": [
            {
              "retain": 88
            },
            {
              "insert": "The weather is warm and there is smoke in the crowd."
            }
          ]
        },
        {
          "ops": [
            {
              "retain": 88
            },
            {
              "insert": " "
            }
          ]
        }
      ],
      "endTime": 1699652419678,
      "enjoyment": "1",
      "experiment_id": "description-editing-final.json",
      "final_description": "A bustling street festival with crowds, mountains in the backdrop, and a clear blue sky. The weather is warm and there is smoke in the crowd.\n",
      "glb_comments": "",
      "languages": "English",
      "picture": "images/travel/26005.jpg",
      "prolific_id": "654d68745761097ee651b003",
      "reactionTime": 62515,
      "sequential_change": [
        "A bustling street festival with crowds, mountains in the backdrop, and a clear blue sky.The weather is warm and there is smoke in the crowd.\n",
        "A bustling street festival with crowds, mountains in the backdrop, and a clear blue sky. The weather is warm and there is smoke in the crowd.\n"
      ],
      "startDate": "Fri Nov 10 2023 13:36:27 GMT-0800 (Pacific Standard Time)",
      "startTime": 1699652187454,
      "start_description": "A bustling street festival with crowds, mountains in the backdrop, and a clear blue sky.",
      "timeSpent": 3.8704,
      "trial_number": 4
    },
    {
      "HitCorrect": "1",
      "botresponse": "Elizabeth",
      "category": "science_journals",
      "checkbox": true,
      "comments": "",
      "endTime": 1699652419678,
      "enjoyment": "1",
      "experiment_id": "description-editing-final.json",
      "final_description": "A vibrant cosmic nebula with swirls of purple and blue against the backdrop of a starry sky.\n",
      "glb_comments": "",
      "languages": "English",
      "picture": "images/science_journals/Artist’s_impression_of_the_huge_outflow_ejected_from_the_quasar_SDSS_J1106+1939.jpeg",
      "prolific_id": "654d68745761097ee651b003",
      "reactionTime": 12171,
      "startDate": "Fri Nov 10 2023 13:36:27 GMT-0800 (Pacific Standard Time)",
      "startTime": 1699652187454,
      "start_description": "A vibrant cosmic nebula with swirls of purple and blue against the backdrop of a starry sky.",
      "timeSpent": 3.8704,
      "trial_number": 5
    },
    {
      "HitCorrect": "1",
      "botresponse": "Elizabeth",
      "category": "health",
      "checkbox": false,
      "comments": "",
      "deltas": [
        {
          "ops": [
            {
              "retain": 2
            },
            {
              "insert": "f"
            },
            {
              "delete": 6
            }
          ]
        },
        {
          "ops": [
            {
              "retain": 3
            },
            {
              "insert": "e"
            }
          ]
        },
        {
          "ops": [
            {
              "retain": 4
            },
            {
              "insert": "m"
            }
          ]
        },
        {
          "ops": [
            {
              "retain": 5
            },
            {
              "insert": "a"
            }
          ]
        },
        {
          "ops": [
            {
              "retain": 6
            },
            {
              "insert": "l"
            }
          ]
        },
        {
          "ops": [
            {
              "retain": 7
            },
            {
              "insert": "e"
            }
          ]
        },
        {
          "ops": [
            {
              "retain": 70
            },
            {
              "insert": " "
            }
          ]
        },
        {
          "ops": [
            {
              "retain": 71
            },
            {
              "insert": "S"
            }
          ]
        },
        {
          "ops": [
            {
              "retain": 72
            },
            {
              "insert": "h"
            }
          ]
        },
        {
          "ops": [
            {
              "retain": 73
            },
            {
              "insert": "e"
            }
          ]
        },
        {
          "ops": [
            {
              "retain": 74
            },
            {
              "insert": " "
            }
          ]
        },
        {
          "ops": [
            {
              "retain": 75
            },
            {
              "insert": "i"
            }
          ]
        },
        {
          "ops": [
            {
              "retain": 76
            },
            {
              "insert": " "
            }
          ]
        },
        {
          "ops": [
            {
              "retain": 77
            },
            {
              "insert": "s"
            }
          ]
        },
        {
          "ops": [
            {
              "retain": 78
            },
            {
              "insert": "l"
            }
          ]
        },
        {
          "ops": [
            {
              "retain": 79
            },
            {
              "insert": "i"
            }
          ]
        },
        {
          "ops": [
            {
              "retain": 80
            },
            {
              "insert": "s"
            }
          ]
        },
        {
          "ops": [
            {
              "retain": 81
            },
            {
